Folder: Machine-Learning-Projects/Ceramic Product Lab Testing/ML_model

File: magnesia_carbon_data.csv
sample_id,setting,total_carbon_wt%,graphite_wt%,carbon_black_wt%,resin_wt%,pitch_wt%,graphene_wt%,cnt_wt%,gnp_wt%,antioxidant_wt%,mgo_purity_pct,d50_micron,porosity_pct,density_g_cm3,thermal_conductivity_W_mK,oxidation_mass_loss_pct,oxidation_penetration_mm,hot_MOR_MPa,slag_contact_angle_deg,residual_strength_pct_after_shock,dominant_carbon_source
S0001,lab,6.866,0.466,0.087,4.734,1.507,0.07,0,0.001,1.883,97.87,28.55,0.2,3.58,7.634,0,6.036,178.13,81.41,75.11,resin
S0009,lab,4.069,1.385,1.07,0.365,0.124,0.007,0.001,1.117,2.623,93.31,31.11,3.534,3.462,13.28,0,0,223.471,97.94,120.55,graphite
S0017,lab,2.89,0.814,0.365,0.504,0.318,0.001,0.84,0.047,2.557,98.63,16.11,2.829,3.446,10.416,0,0,227.062,91.12,111.04,cnt
S0025,lab,4.16,1.814,0.018,1.089,0.6,0.002,0.636,0,1.131,90,23.96,0.709,3.556,10.798,0,0.77,208.514,88.05,93.04,graphite
S0033,lab,6.073,2.274,2.289,1.269,0.172,0.001,0.06,0.008,2.685,86.82,13,2.525,3.505,8.851,0,5.693,144.757,89.29,64.08,carbon_black
S0041,lab,1.883,0.509,0.64,0.536,0.106,0,0,0.093,0.341,93.74,17.19,1.978,3.492,8.041,0,2.256,173.194,84.3,78.68,carbon_black
S0049,lab,9.223,6.629,0.292,0.221,0.649,1.432,0,0,0.736,88.03,42.8,5.327,3.387,26.328,0,0,205.416,122.38,107.16,graphite
S0057,lab,3.726,0.81,0.136,0.091,0.029,1.431,1.229,0.001,2.121,90.57,39.85,0.2,3.531,22.012,0,0,314.461,120.43,150,graphene
S0065,lab,2.544,1.561,0.105,0.275,0.012,0.589,0.001,0,0.396,97.54,27.56,1.582,3.479,12.343,0,0.248,199.799,99.9,86.34,graphite
S0073,lab,3.369,1.801,1.357,0.138,0.064,0,0.008,0,0.153,95.59,49.14,4.501,3.417,8.1,0.406,3.338,164.428,88.77,56.3,graphite
S0081,lab,1.342,0.522,0.445,0.337,0.018,0,0,0.021,2.855,97.87,26.3,0.994,3.556,4.901,0,1.212,200.767,82.1,72.33,graphite
S0089,lab,7.767,4.341,0.486,2.84,0.038,0.008,0,0.055,1.737,88.23,42.27,2.535,3.521,14.099,0,5.433,163.51,96.8,71.87,graphite
S0097,lab,7.44,1.578,0.48,0.56,4.484,0.143,0,0.196,0.083,88.34,10.26,3.51,3.467,8.926,0,6.81,161.52,90.82,82.46,pitch
S0105,lab,4.837,2.415,0.333,0.995,0.006,0.194,0.003,0.89,0.535,90.82,36.34,2.292,3.487,14.969,0,0,206.7,99.24,102.16,graphite
S0113,industrial,3.47,0.976,1.074,0.73,0.21,0.018,0.389,0.073,2.855,96.57,5.94,1.104,3.495,8.814,0,0,217.327,93.16,94.08,carbon_black
S0121,lab,6.725,3.06,2.318,0.384,0.341,0.588,0.018,0.015,1.793,94.72,33.46,2.762,3.469,14.176,0,2.344,193.328,100.93,91.15,graphite
S0129,lab,3.957,2.366,0.398,0.921,0.271,0,0,0,1.287,96.86,13.19,2.178,3.517,10.746,0.642,2.01,184.539,88.96,61.13,graphite
S0137,lab,6.02,2.681,1.994,0.972,0.202,0.012,0,0.158,2.765,95.53,7.38,1.39,3.58,13.422,0,3.487,194.513,92.8,85.42,graphite
S0145,lab,7.509,5.528,0.612,0.283,0.019,0.088,0.021,0.958,1.401,97.84,27.54,2.85,3.434,19.869,0,0.292,217.788,116.86,102.58,graphite
S0153,industrial,4.408,2.894,0.644,0.774,0.096,0,0,0,1.444,93.25,13.92,1.249,3.552,11.609,0,3.249,163.806,100.02,71.73,graphite
S0161,lab,7.459,3.211,1.579,1.786,0.771,0.109,0,0.004,1.836,85.53,21.86,3.507,3.52,12.131,0,5.721,161.068,92.14,68.05,graphite
S0169,lab,1.387,0.126,0.336,0.36,0.198,0.01,0.001,0.357,1.358,86.12,24.32,0.2,3.58,9.64,0,0,182.745,93.14,78.6,resin
S0177,industrial,1.029,0.562,0.072,0.114,0.003,0.243,0.03,0.005,1.196,98.71,44.63,0.2,3.58,4.806,0,0,209.551,90.78,87.05,graphite
S0185,lab,5.153,2.417,0.005,1.206,0.015,1.494,0,0.015,1.127,96.71,7.63,0.2,3.577,17.871,0,0,240.433,107.14,125.44,graphite
S0193,lab,2.925,0.41,0.174,0.093,0.462,0.004,1.782,0,1.095,85.85,12.78,0.2,3.58,15.873,0,0,232.767,109.55,124.34,cnt
S0201,lab,7.486,1.535,0.051,1.977,2.684,0.77,0.232,0.237,1.393,92.61,27.36,0.45,3.551,14.457,0,0,224.351,96.14,119.4,pitch
S0209,lab,6.028,0.961,0.075,1.447,1.648,0.002,1.896,0,1.635,90.01,34.24,1.513,3.511,16.792,0,0,251.94,101.07,144.78,cnt
S0217,lab,2.064,1.032,0.843,0.173,0.012,0.001,0.001,0.003,2.585,87.24,45.94,2.302,3.491,4.759,0,0.098,160.533,83.15,63.48,graphite
S0225,lab,5.275,4.059,0.166,0.329,0.685,0.034,0.002,0,0.921,91.12,1.38,3.583,3.404,14.16,0.431,5.899,159.753,87.56,59.43,graphite
S0233,industrial,8.751,3.569,0.357,2.715,1.356,0.276,0.479,0,0.096,91,17.98,1.751,3.518,18.693,0,7.314,191.469,103.27,94.18,graphite
S0241,lab,8.383,4.429,0.629,0.299,1.642,0,0.028,1.356,1.299,98.41,3.53,4.571,3.411,23.431,0,0.463,234.666,115.36,131.8,graphite
S0249,lab,3.85,3.018,0.566,0.102,0.001,0.046,0.117,0,1.167,93.76,37.64,2.572,3.532,12.642,0.726,2.655,168.977,101.14,78.16,graphite
S0257,lab,4.539,2.756,0.423,0.462,0.034,0.279,0.003,0.582,1.448,92.69,21.93,1.933,3.506,16.154,0,0,203.853,104.19,105.51,graphite
S0265,industrial,5.542,3.744,1.482,0.139,0.065,0.053,0,0.058,1.196,97.22,41.96,3.416,3.485,12.218,0.469,5.286,165.86,100.22,71.96,graphite
S0273,lab,8.939,1.334,1.48,5.338,0.349,0.003,0.203,0.23,2.522,96.87,43.97,1.292,3.536,7.455,0,3.051,195.416,94.61,92.75,resin
S0281,lab,0.736,0.042,0.122,0.059,0.307,0.012,0.193,0,1.145,96.48,27.97,0.2,3.58,5.439,0,0,194.511,85.18,85.08,pitch
S0289,lab,7.66,0.35,2.585,2.393,0.059,1.893,0.313,0.066,0.054,91.35,5.15,5.103,3.285,16.674,0,0,244.882,101.97,150,carbon_black
S0297,industrial,6.017,1.423,2.389,1.591,0.038,0,0.048,0.527,2.07,91.49,16,1.545,3.479,11.895,0,1.309,186.664,96.64,87.4,carbon_black
S0305,lab,6.987,4.685,1.807,0.403,0.05,0.01,0,0.032,1.519,93.51,29.84,2.261,3.502,13.12,0.421,7.684,156.051,96.62,55.48,graphite
S0313,lab,7.592,2.817,1.852,0.074,2.259,0.479,0.026,0.083,1.272,94.08,13.18,3.418,3.437,15.187,0,1.848,198.116,105.44,85.75,graphite
S0321,lab,11.472,4.107,0.002,6.844,0.304,0.128,0.016,0.07,2.037,94.43,3.67,2.763,3.485,11.547,0,9.768,192.275,94.7,78.12,resin
S0329,lab,11.384,9.788,0.461,0.149,0.786,0,0.001,0.199,0.761,93.79,31.41,3.137,3.502,23.781,1.355,8.386,167.604,121.62,76.72,graphite
S0337,lab,4.195,1.698,0.738,1.163,0.173,0.048,0,0.375,2.263,90.07,18.6,1.487,3.554,9.878,0,1.598,195.837,91.52,79.98,graphite
S0345,industrial,3.834,0.617,1.039,0.108,1.852,0.127,0.09,0,2.752,93.48,46.3,0.2,3.533,8.117,0,0,185.374,90.75,77.67,pitch
S0353,lab,2.729,1.066,0.151,1.258,0.237,0,0.004,0.013,1.991,95,40.15,0.2,3.533,5.92,0,0.773,188.806,85.47,67.89,resin
S0361,industrial,3.053,0.939,1.609,0.077,0.377,0.006,0.046,0,0.883,93.24,47.82,3.464,3.454,6.27,1.153,2.129,171.084,84.7,66.81,carbon_black
S0369,lab,6.44,1.142,0.962,2.059,0.496,1.014,0.641,0.126,2.509,96.1,3.84,0.2,3.58,16.529,0,0,278.578,101.31,148.89,resin
S0377,industrial,7.308,1.536,2.174,2.116,0.817,0.05,0.042,0.572,1.157,88.26,30.24,3.365,3.505,14.094,0,3.565,180.616,91.94,100.21,carbon_black
S0385,industrial,3.371,3.201,0.11,0.002,0.013,0.002,0.001,0.042,0.112,94.55,48.11,4.871,3.498,11.306,0.92,4.247,138.369,92.1,73.08,graphite
S0393,industrial,6.05,2.815,0.014,0.031,2.904,0,0.215,0.071,0.214,91.8,10.59,1.114,3.544,12.349,0,2.932,186.121,93.62,84.54,pitch
S0401,lab,7.801,0.887,5.241,0.834,0.749,0.032,0,0.057,2.654,87.97,21.46,5.359,3.381,8.935,0.48,6.829,146.229,86.93,66.57,carbon_black
S0409,industrial,6.915,3.233,0.284,3.096,0.268,0.018,0,0.017,2.463,85.74,29.01,0.219,3.557,13.758,0,3.616,171.711,91.53,73.1,graphite
S0417,lab,4.518,1.268,1.35,1.143,0.401,0.32,0.001,0.036,2.444,98.58,26.32,1.16,3.465,11.143,0,2.102,184.399,82.63,78.25,carbon_black
S0425,lab,8.525,2.321,1.672,0.221,0.073,0.201,0.002,4.034,2.996,92.86,31.6,1.056,3.49,32.376,0,0,350,135.72,150,gnp
S0433,lab,9.104,5.023,1.536,1.627,0.001,0.012,0.104,0.801,1.066,90.2,39.17,4.843,3.433,22.774,0,0,181.311,112.3,94.95,graphite
S0441,lab,9.844,3.741,2.482,0.798,1.747,0.753,0.323,0,2.716,94.9,4.69,3.485,3.469,17.954,0,3.298,221.955,108.41,115.23,graphite
S0449,lab,6.389,3.444,0.102,0.668,0.475,0.003,1.608,0.088,0.71,98.86,40.38,3.047,3.421,18.447,0,0,251.715,114.94,130.55,graphite
S0457,lab,4.585,1.565,0.648,0.505,1.062,0.806,0,0,1.96,85.16,39.4,3.097,3.466,10.357,0,0.636,196.47,91.87,91.71,graphite
S0465,lab,11.449,2.919,0.408,5.53,2.245,0.002,0.344,0.001,2.782,93.39,43.83,0.2,3.579,11.994,0,10.473,186.808,98.48,81.35,resin
S0473,industrial,5.919,1.888,0.542,3.161,0.131,0.016,0.179,0.002,1.908,88.84,30.22,0.938,3.568,10.054,0,3.189,185.614,93.75,77.28,resin
S0481,industrial,4.293,3.04,0.527,0.714,0.003,0,0.005,0.004,1.227,89.39,6.71,2.412,3.52,8.394,0.908,4.083,150.899,91.61,68.73,graphite
S0489,lab,3.942,0.868,1.171,1.376,0.484,0.002,0.001,0.04,2.594,98.57,11.46,1.72,3.52,8.228,0,4.717,190.978,83.94,76.76,resin
S0497,lab,7.129,1.044,1.769,0.184,0.114,0,1.19,2.827,0.312,87.72,40.23,4.315,3.424,27.394,0,0,309.174,127.04,150,gnp
S0505,industrial,6.663,2.481,1.022,1.138,0.576,0.411,0,1.035,1.933,92.01,3.77,1.378,3.532,16.584,0,0,238.858,107.04,138.69,graphite
S0513,lab,3.563,1.607,1.05,0.82,0.067,0,0.008,0.01,0.494,96.37,16.19,3.388,3.444,5.653,0.509,4.542,165.253,91.08,65.87,graphite
S0521,lab,9.028,1.25,2.247,1.871,0.55,0.001,2.904,0.206,0.647,89.58,15.32,3.019,3.422,22.863,0,0,292.57,121.37,150,cnt
S0529,lab,5.01,1.019,0.374,2.187,0.004,0,1.273,0.152,0.335,89.72,2.35,1.694,3.525,14.063,0,0,220.233,104.73,124.74,resin
S0537,industrial,4.658,2.933,0.303,0.233,0.12,0.76,0.089,0.219,0.066,96.77,12.64,2.522,3.519,14.883,0,0,218.14,101.93,101.94,graphite
S0545,lab,3.463,1.229,0.372,0.17,0.56,0.115,0.087,0.93,1.637,95.01,2.72,1.042,3.502,12.225,0,0,234.086,101.49,107.56,graphite
S0553,lab,5.857,1.803,1.218,0.748,0.958,0.073,1.056,0.001,2.612,87.88,45.5,1.89,3.538,15.493,0,0,209.617,96.82,122.12,graphite
S0561,industrial,3.599,0.509,0.224,0.793,1.618,0,0,0.455,0.549,97.2,6.4,2.01,3.532,7.616,0,1.484,185.927,90.36,92.69,pitch
S0569,lab,3.401,1.216,0.08,1.162,0.768,0,0.067,0.107,1.091,92.39,1.84,1.016,3.542,7.344,0,1.754,166.056,82.95,77.08,graphite
S0577,lab,5.136,1.899,0.73,0.229,1.032,0.923,0.251,0.072,0.316,98.71,9.88,4.295,3.423,14.025,0,0,205.684,96.84,111.88,graphite
S0585,lab,7.944,0.334,3.315,0.901,0.722,0.04,1.995,0.637,0.665,93.02,27.46,5.596,3.38,20.465,0,0,255.308,112.19,150,carbon_black
S0593,lab,7.353,2.622,0.873,1.483,1.471,0.019,0.882,0.004,0.871,96.65,1.17,1.704,3.508,15.349,0,1.35,209.599,97.56,105.4,graphite
S0600,lab,3.272,0.465,0.747,1.224,0.124,0.66,0.009,0.044,2.315,97.41,21.61,0.2,3.493,10.191,0,0,216.866,90.8,96.48,resin